?
Axis	Energy	Elements=	1361
Axis	Position	Elements=	1
Axis	X	Elements=	1
Axis	Y	Elements=	1

C:\Users\AG Wittstock\Documents\Iza\06_27.01.2017\Grosz_03\Mono 500µm\Multi Point\Survey.VGD


	Position (Pos)\	Pt #003	
	X (X)\µm	22023.6	
	Y (Y)\µm	2940.10	
Binding Energy (E)	
eV		Counts / s
1350.00		308644.	
1349.00		306878.	
1348.00		306934.	
1347.00		304100.	
1346.00		307503.	
1345.00		303915.	
1344.00		304228.	
1343.00		304523.	
1342.00		304393.	
1341.00		302604.	
1340.00		301883.	
1339.00		301495.	
1338.00		301125.	
1337.00		297551.	
1336.00		299973.	
1335.00		303186.	
1334.00		295979.	
1333.00		295624.	
1332.00		297685.	
1331.00		296703.	
1330.00		297256.	
1329.00		296785.	
1328.00		292878.	
1327.00		291591.	
1326.00		291291.	
1325.00		292331.	
1324.00		292907.	
1323.00		290854.	
1322.00		293460.	
1321.00		293492.	
1320.00		290222.	
1319.00		292218.	
1318.00		289906.	
1317.00		291704.	
1316.00		286514.	
1315.00		288425.	
1314.00		292076.	
1313.00		292663.	
1312.00		289428.	
1311.00		290700.	
1310.00		289520.	
1309.00		288989.	
1308.00		290285.	
1307.00		286832.	
1306.00		286265.	
1305.00		291535.	
1304.00		294576.	
1303.00		291276.	
1302.00		289353.	
1301.00		284642.	
1300.00		287183.	
1299.00		290821.	
1298.00		285881.	
1297.00		287163.	
1296.00		288684.	
1295.00		287926.	
1294.00		287429.	
1293.00		287507.	
1292.00		287291.	
1291.00		286161.	
1290.00		285295.	
1289.00		286153.	
1288.00		286934.	
1287.00		288483.	
1286.00		288182.	
1285.00		287200.	
1284.00		285701.	
1283.00		286016.	
1282.00		287261.	
1281.00		288872.	
1280.00		287781.	
1279.00		291490.	
1278.00		288646.	
1277.00		289022.	
1276.00		288556.	
1275.00		288849.	
1274.00		286576.	
1273.00		292525.	
1272.00		291054.	
1271.00		291664.	
1270.00		289613.	
1269.00		293774.	
1268.00		291512.	
1267.00		294077.	
1266.00		290311.	
1265.00		291445.	
1264.00		293287.	
1263.00		292929.	
1262.00		295670.	
1261.00		292666.	
1260.00		289427.	
1259.00		293888.	
1258.00		291956.	
1257.00		294747.	
1256.00		297632.	
1255.00		292228.	
1254.00		291902.	
1253.00		293053.	
1252.00		293944.	
1251.00		297975.	
1250.00		296666.	
1249.00		297689.	
1248.00		298706.	
1247.00		299089.	
1246.00		300196.	
1245.00		299947.	
1244.00		300826.	
1243.00		300516.	
1242.00		301375.	
1241.00		301797.	
1240.00		302506.	
1239.00		303685.	
1238.00		302682.	
1237.00		304508.	
1236.00		303876.	
1235.00		304351.	
1234.00		303437.	
1233.00		305863.	
1232.00		307707.	
1231.00		308878.	
1230.00		312072.	
1229.00		310659.	
1228.00		312608.	
1227.00		311314.	
1226.00		309958.	
1225.00		307579.	
1224.00		307176.	
1223.00		308891.	
1222.00		308320.	
1221.00		310159.	
1220.00		303866.	
1219.00		304495.	
1218.00		295913.	
1217.00		298623.	
1216.00		294710.	
1215.00		294658.	
1214.00		290732.	
1213.00		289372.	
1212.00		288112.	
1211.00		290669.	
1210.00		288657.	
1209.00		289171.	
1208.00		285819.	
1207.00		284770.	
1206.00		283866.	
1205.00		284526.	
1204.00		288667.	
1203.00		284153.	
1202.00		285566.	
1201.00		287645.	
1200.00		287843.	
1199.00		289030.	
1198.00		288553.	
1197.00		291877.	
1196.00		292834.	
1195.00		295518.	
1194.00		290489.	
1193.00		291787.	
1192.00		287052.	
1191.00		290651.	
1190.00		289865.	
1189.00		290427.	
1188.00		288954.	
1187.00		292517.	
1186.00		287224.	
1185.00		290677.	
1184.00		292457.	
1183.00		290635.	
1182.00		291779.	
1181.00		288679.	
1180.00		289929.	
1179.00		292733.	
1178.00		289439.	
1177.00		290293.	
1176.00		292741.	
1175.00		293733.	
1174.00		292102.	
1173.00		291494.	
1172.00		294899.	
1171.00		292444.	
1170.00		293746.	
1169.00		292955.	
1168.00		292717.	
1167.00		293801.	
1166.00		294362.	
1165.00		298125.	
1164.00		295974.	
1163.00		292899.	
1162.00		296735.	
1161.00		295915.	
1160.00		293320.	
1159.00		295940.	
1158.00		296301.	
1157.00		295343.	
1156.00		298855.	
1155.00		299115.	
1154.00		299677.	
1153.00		298805.	
1152.00		304041.	
1151.00		300389.	
1150.00		301174.	
1149.00		298985.	
1148.00		302015.	
1147.00		305920.	
1146.00		304314.	
1145.00		301138.	
1144.00		299708.	
1143.00		301431.	
1142.00		304036.	
1141.00		303997.	
1140.00		304722.	
1139.00		306263.	
1138.00		310574.	
1137.00		303899.	
1136.00		303403.	
1135.00		306104.	
1134.00		307488.	
1133.00		308099.	
1132.00		308819.	
1131.00		308099.	
1130.00		310721.	
1129.00		305987.	
1128.00		310037.	
1127.00		312581.	
1126.00		310397.	
1125.00		311562.	
1124.00		312147.	
1123.00		310159.	
1122.00		314168.	
1121.00		310641.	
1120.00		310207.	
1119.00		310463.	
1118.00		312633.	
1117.00		312639.	
1116.00		316828.	
1115.00		315673.	
1114.00		311227.	
1113.00		313343.	
1112.00		314954.	
1111.00		311988.	
1110.00		310890.	
1109.00		313541.	
1108.00		313923.	
1107.00		313114.	
1106.00		314496.	
1105.00		312739.	
1104.00		313976.	
1103.00		314573.	
1102.00		319096.	
1101.00		316511.	
1100.00		321548.	
1099.00		322988.	
1098.00		323632.	
1097.00		329662.	
1096.00		327337.	
1095.00		322761.	
1094.00		320044.	
1093.00		318756.	
1092.00		317292.	
1091.00		317312.	
1090.00		314831.	
1089.00		315347.	
1088.00		312543.	
1087.00		313739.	
1086.00		317777.	
1085.00		316522.	
1084.00		313193.	
1083.00		313235.	
1082.00		314658.	
1081.00		313503.	
1080.00		311646.	
1079.00		315443.	
1078.00		318708.	
1077.00		312460.	
1076.00		314338.	
1075.00		320714.	
1074.00		324249.	
1073.00		338468.	
1072.00		340977.	
1071.00		327141.	
1070.00		323771.	
1069.00		319398.	
1068.00		320350.	
1067.00		322900.	
1066.00		320819.	
1065.00		317772.	
1064.00		316974.	
1063.00		320517.	
1062.00		321389.	
1061.00		320867.	
1060.00		321243.	
1059.00		322171.	
1058.00		319627.	
1057.00		317279.	
1056.00		318976.	
1055.00		319747.	
1054.00		319325.	
1053.00		318567.	
1052.00		319682.	
1051.00		323633.	
1050.00		325129.	
1049.00		323286.	
1048.00		322899.	
1047.00		333692.	
1046.00		362093.	
1045.00		381529.	
1044.00		365963.	
1043.00		337340.	
1042.00		324267.	
1041.00		319776.	
1040.00		323624.	
1039.00		320356.	
1038.00		317257.	
1037.00		319128.	
1036.00		318559.	
1035.00		319191.	
1034.00		313288.	
1033.00		312266.	
1032.00		310374.	
1031.00		312677.	
1030.00		310853.	
1029.00		308986.	
1028.00		312605.	
1027.00		313327.	
1026.00		314055.	
1025.00		318949.	
1024.00		336539.	
1023.00		381748.	
1022.00		432013.	
1021.00		406569.	
1020.00		343657.	
1019.00		315140.	
1018.00		314780.	
1017.00		310678.	
1016.00		311720.	
1015.00		310544.	
1014.00		310717.	
1013.00		307968.	
1012.00		305880.	
1011.00		308813.	
1010.00		310455.	
1009.00		312771.	
1008.00		310551.	
1007.00		311883.	
1006.00		312193.	
1005.00		312517.	
1004.00		311837.	
1003.00		311221.	
1002.00		314440.	
1001.00		313758.	
1000.00		316986.	
999.000		319148.	
998.000		318250.	
997.000		318043.	
996.000		318808.	
995.000		316335.	
994.000		318049.	
993.000		317167.	
992.000		317367.	
991.000		320705.	
990.000		315091.	
989.000		316153.	
988.000		316244.	
987.000		318150.	
986.000		316194.	
985.000		318069.	
984.000		316267.	
983.000		317684.	
982.000		320947.	
981.000		323632.	
980.000		323263.	
979.000		325643.	
978.000		326319.	
977.000		326902.	
976.000		325332.	
975.000		328421.	
974.000		333585.	
973.000		327603.	
972.000		326023.	
971.000		320990.	
970.000		318802.	
969.000		317374.	
968.000		314161.	
967.000		307802.	
966.000		310174.	
965.000		304264.	
964.000		304469.	
963.000		297346.	
962.000		296555.	
961.000		296098.	
960.000		295527.	
959.000		302322.	
958.000		299692.	
957.000		297349.	
956.000		305770.	
955.000		322137.	
954.000		357754.	
953.000		401450.	
952.000		385569.	
951.000		328576.	
950.000		296597.	
949.000		285190.	
948.000		279228.	
947.000		274874.	
946.000		268002.	
945.000		266817.	
944.000		258186.	
943.000		253098.	
942.000		248002.	
941.000		243658.	
940.000		240260.	
939.000		244229.	
938.000		244632.	
937.000		247922.	
936.000		255739.	
935.000		281963.	
934.000		393732.	
933.000		508935.	
932.000		427520.	
931.000		281513.	
930.000		231927.	
929.000		219202.	
928.000		218122.	
927.000		220324.	
926.000		216076.	
925.000		215691.	
924.000		216228.	
923.000		217180.	
922.000		216382.	
921.000		212360.	
920.000		214609.	
919.000		217841.	
918.000		216537.	
917.000		218756.	
916.000		216330.	
915.000		217924.	
914.000		217635.	
913.000		220954.	
912.000		217902.	
911.000		220002.	
910.000		214738.	
909.000		218589.	
908.000		218122.	
907.000		219551.	
906.000		219410.	
905.000		221562.	
904.000		221081.	
903.000		219518.	
902.000		220425.	
901.000		225971.	
900.000		225672.	
899.000		220440.	
898.000		224043.	
897.000		223727.	
896.000		219442.	
895.000		225441.	
894.000		224272.	
893.000		220531.	
892.000		219447.	
891.000		223514.	
890.000		221302.	
889.000		221429.	
888.000		224167.	
887.000		225385.	
886.000		222631.	
885.000		226748.	
884.000		226061.	
883.000		228520.	
882.000		225596.	
881.000		227426.	
880.000		227705.	
879.000		230601.	
878.000		229539.	
877.000		229355.	
876.000		228059.	
875.000		229562.	
874.000		228739.	
873.000		231153.	
872.000		231387.	
871.000		232073.	
870.000		232716.	
869.000		231488.	
868.000		235903.	
867.000		234302.	
866.000		233338.	
865.000		235247.	
864.000		234306.	
863.000		233187.	
862.000		234855.	
861.000		232658.	
860.000		234422.	
859.000		233770.	
858.000		233449.	
857.000		233044.	
856.000		235087.	
855.000		238339.	
854.000		236533.	
853.000		233275.	
852.000		233881.	
851.000		238390.	
850.000		239234.	
849.000		238418.	
848.000		240883.	
847.000		236444.	
846.000		238951.	
845.000		240724.	
844.000		239121.	
843.000		239309.	
842.000		240238.	
841.000		242183.	
840.000		237868.	
839.000		245495.	
838.000		245428.	
837.000		240719.	
836.000		243051.	
835.000		245474.	
834.000		246798.	
833.000		242828.	
832.000		243167.	
831.000		247629.	
830.000		242990.	
829.000		246379.	
828.000		248335.	
827.000		246224.	
826.000		246113.	
825.000		244256.	
824.000		244165.	
823.000		249438.	
822.000		249955.	
821.000		248047.	
820.000		244127.	
819.000		249884.	
818.000		250039.	
817.000		247601.	
816.000		246785.	
815.000		246953.	
814.000		248724.	
813.000		249010.	
812.000		249871.	
811.000		248994.	
810.000		252094.	
809.000		255825.	
808.000		249598.	
807.000		253426.	
806.000		252807.	
805.000		254328.	
804.000		253423.	
803.000		253835.	
802.000		251837.	
801.000		255298.	
800.000		254862.	
799.000		254579.	
798.000		256362.	
797.000		256601.	
796.000		257868.	
795.000		256564.	
794.000		255941.	
793.000		257560.	
792.000		258342.	
791.000		260284.	
790.000		256136.	
789.000		257161.	
788.000		258949.	
787.000		259742.	
786.000		262844.	
785.000		262181.	
784.000		259482.	
783.000		259846.	
782.000		259683.	
781.000		256232.	
780.000		261175.	
779.000		261609.	
778.000		261907.	
777.000		262246.	
776.000		266933.	
775.000		263271.	
774.000		263006.	
773.000		267423.	
772.000		269710.	
771.000		266966.	
770.000		265373.	
769.000		268585.	
768.000		265320.	
767.000		264832.	
766.000		265793.	
765.000		264966.	
764.000		266807.	
763.000		265981.	
762.000		268362.	
761.000		271351.	
760.000		269719.	
759.000		266971.	
758.000		267982.	
757.000		271428.	
756.000		273180.	
755.000		272436.	
754.000		271832.	
753.000		267351.	
752.000		268767.	
751.000		270283.	
750.000		269662.	
749.000		269498.	
748.000		272287.	
747.000		268880.	
746.000		267880.	
745.000		266589.	
744.000		271031.	
743.000		272408.	
742.000		269571.	
741.000		264628.	
740.000		271980.	
739.000		270811.	
738.000		270227.	
737.000		269826.	
736.000		274637.	
735.000		271300.	
734.000		271124.	
733.000		272539.	
732.000		271884.	
731.000		270142.	
730.000		269416.	
729.000		273762.	
728.000		274817.	
727.000		275375.	
726.000		271634.	
725.000		271944.	
724.000		271483.	
723.000		270428.	
722.000		270184.	
721.000		270054.	
720.000		276720.	
719.000		277448.	
718.000		274055.	
717.000		276287.	
716.000		275189.	
715.000		271022.	
714.000		273075.	
713.000		274206.	
712.000		274363.	
711.000		270434.	
710.000		263335.	
709.000		256691.	
708.000		251884.	
707.000		255134.	
706.000		253700.	
705.000		245669.	
704.000		249503.	
703.000		252315.	
702.000		250244.	
701.000		249048.	
700.000		244919.	
699.000		244496.	
698.000		246561.	
697.000		250144.	
696.000		249536.	
695.000		250646.	
694.000		245803.	
693.000		249025.	
692.000		251160.	
691.000		248839.	
690.000		248635.	
689.000		244722.	
688.000		244842.	
687.000		245927.	
686.000		249342.	
685.000		252324.	
684.000		249105.	
683.000		246941.	
682.000		244583.	
681.000		244905.	
680.000		244565.	
679.000		243655.	
678.000		246616.	
677.000		245103.	
676.000		245116.	
675.000		246100.	
674.000		245978.	
673.000		247293.	
672.000		246275.	
671.000		246177.	
670.000		246750.	
669.000		249732.	
668.000		248167.	
667.000		249009.	
666.000		248216.	
665.000		248223.	
664.000		248119.	
663.000		242884.	
662.000		246821.	
661.000		248259.	
660.000		246087.	
659.000		248049.	
658.000		248061.	
657.000		248725.	
656.000		247254.	
655.000		248303.	
654.000		248052.	
653.000		242834.	
652.000		245322.	
651.000		247322.	
650.000		251188.	
649.000		252992.	
648.000		257992.	
647.000		255673.	
646.000		242367.	
645.000		234254.	
644.000		231457.	
643.000		231569.	
642.000		233047.	
641.000		231379.	
640.000		235540.	
639.000		232667.	
638.000		223636.	
637.000		219582.	
636.000		213836.	
635.000		207923.	
634.000		210777.	
633.000		202996.	
632.000		202604.	
631.000		201013.	
630.000		201020.	
629.000		204223.	
628.000		199745.	
627.000		203018.	
626.000		200730.	
625.000		195521.	
624.000		192490.	
623.000		192928.	
622.000		192816.	
621.000		191195.	
620.000		192815.	
619.000		191371.	
618.000		190802.	
617.000		188139.	
616.000		188442.	
615.000		186241.	
614.000		190969.	
613.000		189263.	
612.000		189971.	
611.000		189518.	
610.000		192294.	
609.000		194374.	
608.000		195218.	
607.000		189223.	
606.000		191313.	
605.000		189564.	
604.000		194362.	
603.000		187737.	
602.000		191594.	
601.000		195481.	
600.000		195507.	
599.000		195302.	
598.000		196388.	
597.000		194996.	
596.000		197962.	
595.000		197199.	
594.000		195616.	
593.000		197956.	
592.000		195020.	
591.000		195537.	
590.000		195600.	
589.000		199711.	
588.000		200288.	
587.000		199420.	
586.000		198935.	
585.000		197619.	
584.000		196410.	
583.000		193903.	
582.000		192580.	
581.000		188367.	
580.000		190718.	
579.000		189484.	
578.000		189060.	
577.000		187362.	
576.000		189964.	
575.000		195088.	
574.000		196951.	
573.000		200352.	
572.000		205568.	
571.000		209357.	
570.000		215806.	
569.000		241091.	
568.000		251338.	
567.000		221469.	
566.000		190058.	
565.000		167608.	
564.000		156280.	
563.000		144684.	
562.000		137049.	
561.000		135480.	
560.000		134862.	
559.000		132149.	
558.000		134364.	
557.000		129541.	
556.000		125569.	
555.000		125522.	
554.000		126196.	
553.000		127382.	
552.000		127525.	
551.000		124309.	
550.000		122990.	
549.000		126173.	
548.000		125609.	
547.000		118124.	
546.000		109865.	
545.000		105865.	
544.000		103217.	
543.000		103326.	
542.000		101198.	
541.000		96180.9	
540.000		96408.2	
539.000		96353.0	
538.000		97457.8	
537.000		102415.	
536.000		103865.	
535.000		111457.	
534.000		125388.	
533.000		142183.	
532.000		154026.	
531.000		134453.	
530.000		115089.	
529.000		101768.	
528.000		93065.3	
527.000		91482.7	
526.000		90324.3	
525.000		90780.7	
524.000		94214.5	
523.000		91643.2	
522.000		92366.3	
521.000		93825.5	
520.000		91789.2	
519.000		91932.3	
518.000		91278.7	
517.000		90398.4	
516.000		92061.8	
515.000		91599.4	
514.000		90889.2	
513.000		91821.3	
512.000		89322.3	
511.000		87841.4	
510.000		88706.4	
509.000		90305.6	
508.000		88900.6	
507.000		87780.5	
506.000		87507.6	
505.000		88085.9	
504.000		89289.4	
503.000		89826.9	
502.000		91965.1	
501.000		96559.6	
500.000		102721.	
499.000		114692.	
498.000		121163.	
497.000		120644.	
496.000		113998.	
495.000		107986.	
494.000		102941.	
493.000		90021.5	
492.000		80579.9	
491.000		78016.5	
490.000		73069.3	
489.000		70569.1	
488.000		66871.7	
487.000		66959.4	
486.000		65690.2	
485.000		64511.0	
484.000		66384.9	
483.000		66308.6	
482.000		67306.8	
481.000		65919.7	
480.000		66590.6	
479.000		65646.6	
478.000		68009.6	
477.000		70209.2	
476.000		73996.4	
475.000		72524.1	
474.000		73775.3	
473.000		72885.5	
472.000		73961.0	
471.000		73142.2	
470.000		66757.0	
469.000		63218.9	
468.000		60395.4	
467.000		58304.8	
466.000		56696.8	
465.000		56867.5	
464.000		57920.5	
463.000		58567.7	
462.000		57712.7	
461.000		56928.9	
460.000		57501.0	
459.000		57702.4	
458.000		57439.4	
457.000		57797.0	
456.000		56963.5	
455.000		58914.7	
454.000		58760.0	
453.000		58107.4	
452.000		58411.8	
451.000		59416.7	
450.000		58284.7	
449.000		56423.7	
448.000		58302.2	
447.000		58721.9	
446.000		57704.6	
445.000		58912.7	
444.000		59873.5	
443.000		58609.6	
442.000		59385.3	
441.000		58389.6	
440.000		57304.6	
439.000		59489.0	
438.000		58239.4	
437.000		58540.2	
436.000		59368.3	
435.000		57512.9	
434.000		57922.3	
433.000		57187.1	
432.000		57227.1	
431.000		58373.7	
430.000		57482.9	
429.000		59352.6	
428.000		59015.9	
427.000		58890.6	
426.000		59415.7	
425.000		58869.3	
424.000		58307.4	
423.000		58271.7	
422.000		59715.3	
421.000		58930.7	
420.000		61276.7	
419.000		60172.7	
418.000		61042.6	
417.000		59755.2	
416.000		58843.6	
415.000		59404.0	
414.000		60084.3	
413.000		60239.0	
412.000		60756.4	
411.000		60312.4	
410.000		60938.2	
409.000		60490.2	
408.000		60157.4	
407.000		60490.0	
406.000		60474.9	
405.000		58983.5	
404.000		61415.7	
403.000		61905.6	
402.000		63624.5	
401.000		63649.2	
400.000		62844.2	
399.000		63396.6	
398.000		60429.1	
397.000		61530.7	
396.000		60165.5	
395.000		59351.0	
394.000		60122.7	
393.000		60863.1	
392.000		61255.8	
391.000		58574.7	
390.000		61908.2	
389.000		62832.5	
388.000		59684.9	
387.000		61117.5	
386.000		62092.0	
385.000		61310.8	
384.000		61277.9	
383.000		60052.8	
382.000		61654.6	
381.000		62670.1	
380.000		62706.2	
379.000		63496.0	
378.000		64052.8	
377.000		63982.1	
376.000		64269.5	
375.000		61877.5	
374.000		63354.8	
373.000		61515.3	
372.000		63111.6	
371.000		62561.0	
370.000		60958.8	
369.000		63026.9	
368.000		63575.9	
367.000		62128.3	
366.000		63334.3	
365.000		61978.1	
364.000		63033.3	
363.000		64013.3	
362.000		63872.1	
361.000		64180.3	
360.000		63009.6	
359.000		62785.9	
358.000		61271.9	
357.000		62420.9	
356.000		63239.0	
355.000		63262.7	
354.000		64467.7	
353.000		64132.5	
352.000		64929.7	
351.000		67151.8	
350.000		66668.5	
349.000		66873.5	
348.000		71852.0	
347.000		68092.2	
346.000		66391.0	
345.000		63378.1	
344.000		63468.7	
343.000		65074.3	
342.000		65227.3	
341.000		65145.2	
340.000		65760.4	
339.000		65591.8	
338.000		66229.7	
337.000		65867.1	
336.000		64368.3	
335.000		65024.1	
334.000		64637.3	
333.000		66635.9	
332.000		65662.0	
331.000		65496.8	
330.000		65716.5	
329.000		66472.5	
328.000		64396.4	
327.000		65343.4	
326.000		65592.2	
325.000		66753.2	
324.000		67520.5	
323.000		66194.2	
322.000		67329.1	
321.000		68479.7	
320.000		68161.8	
319.000		67544.6	
318.000		67625.1	
317.000		68550.6	
316.000		69377.1	
315.000		69203.8	
314.000		69890.4	
313.000		69994.2	
312.000		72309.0	
311.000		70191.4	
310.000		70059.2	
309.000		72370.5	
308.000		71474.3	
307.000		70025.7	
306.000		70569.5	
305.000		68865.3	
304.000		67319.3	
303.000		65493.0	
302.000		64252.2	
301.000		60968.1	
300.000		61225.1	
299.000		59399.2	
298.000		57410.6	
297.000		60123.1	
296.000		58936.9	
295.000		59108.8	
294.000		59856.0	
293.000		56359.2	
292.000		54351.2	
291.000		54782.3	
290.000		58776.1	
289.000		65299.0	
288.000		76286.1	
287.000		110356.	
286.000		188520.	
285.000		222533.	
284.000		145491.	
283.000		64526.3	
282.000		46427.5	
281.000		41600.2	
280.000		42254.4	
279.000		41841.6	
278.000		40482.3	
277.000		40791.0	
276.000		41396.8	
275.000		40121.9	
274.000		40696.6	
273.000		43144.4	
272.000		42691.4	
271.000		44446.8	
270.000		42766.5	
269.000		41855.8	
268.000		41944.2	
267.000		41984.7	
266.000		40954.4	
265.000		39741.0	
264.000		39879.5	
263.000		39680.7	
262.000		39839.0	
261.000		39923.5	
260.000		40049.8	
259.000		39172.9	
258.000		39245.2	
257.000		39930.7	
256.000		40813.5	
255.000		41351.8	
254.000		42379.1	
253.000		40497.6	
252.000		41297.4	
251.000		41485.1	
250.000		42990.0	
249.000		42296.4	
248.000		41809.2	
247.000		41654.2	
246.000		42578.3	
245.000		43209.4	
244.000		43559.2	
243.000		44426.5	
242.000		41990.0	
241.000		41938.8	
240.000		42431.5	
239.000		41350.2	
238.000		40489.0	
237.000		40557.4	
236.000		42380.7	
235.000		40996.6	
234.000		41588.4	
233.000		42394.4	
232.000		41463.5	
231.000		41911.0	
230.000		40440.2	
229.000		41728.7	
228.000		42101.6	
227.000		41983.3	
226.000		41536.5	
225.000		42413.9	
224.000		43462.7	
223.000		42113.9	
222.000		42577.7	
221.000		41976.1	
220.000		42340.0	
219.000		43488.0	
218.000		43684.9	
217.000		42243.8	
216.000		43334.3	
215.000		42397.8	
214.000		43333.9	
213.000		42534.3	
212.000		42746.4	
211.000		43754.0	
210.000		41641.6	
209.000		41800.0	
208.000		42966.7	
207.000		42748.0	
206.000		42200.6	
205.000		42492.2	
204.000		42857.6	
203.000		43618.1	
202.000		46218.3	
201.000		47610.6	
200.000		49944.0	
199.000		49360.6	
198.000		45651.6	
197.000		44012.9	
196.000		43129.9	
195.000		43418.3	
194.000		42064.3	
193.000		42337.6	
192.000		42313.3	
191.000		42234.9	
190.000		42875.1	
189.000		42951.0	
188.000		44993.4	
187.000		45111.8	
186.000		44819.5	
185.000		46372.5	
184.000		43607.8	
183.000		43754.6	
182.000		44891.2	
181.000		44100.8	
180.000		44917.7	
179.000		45664.1	
178.000		44525.3	
177.000		45510.0	
176.000		43965.3	
175.000		45338.0	
174.000		45885.9	
173.000		44771.7	
172.000		44432.7	
171.000		45390.2	
170.000		45456.8	
169.000		45786.9	
168.000		47380.3	
167.000		46562.2	
166.000		45705.4	
165.000		46541.6	
164.000		45632.5	
163.000		46067.7	
162.000		46584.5	
161.000		46218.5	
160.000		47336.3	
159.000		46291.8	
158.000		46079.3	
157.000		47619.7	
156.000		46187.3	
155.000		47499.4	
154.000		48252.0	
153.000		47724.1	
152.000		47923.5	
151.000		47465.9	
150.000		45955.2	
149.000		46171.3	
148.000		48918.9	
147.000		48815.7	
146.000		48997.6	
145.000		47739.6	
144.000		47952.2	
143.000		50340.6	
142.000		51647.2	
141.000		55645.0	
140.000		56327.5	
139.000		57699.6	
138.000		53157.6	
137.000		49627.7	
136.000		47348.6	
135.000		46250.0	
134.000		46572.5	
133.000		46612.7	
132.000		43416.7	
131.000		43522.3	
130.000		42975.9	
129.000		42888.6	
128.000		43967.3	
127.000		44984.3	
126.000		45738.8	
125.000		51130.5	
124.000		58597.2	
123.000		67103.8	
122.000		67809.0	
121.000		58055.0	
120.000		48017.5	
119.000		44050.6	
118.000		42608.0	
117.000		43139.6	
116.000		42577.1	
115.000		42243.0	
114.000		42047.8	
113.000		41342.0	
112.000		43355.6	
111.000		43559.2	
110.000		41708.8	
109.000		42649.4	
108.000		43067.7	
107.000		42835.1	
106.000		41692.6	
105.000		42325.5	
104.000		42636.3	
103.000		41834.1	
102.000		41326.9	
101.000		41691.6	
100.000		42175.5	
99.0000		42655.4	
98.0000		41966.5	
97.0000		40594.8	
96.0000		42749.4	
95.0000		42586.1	
94.0000		42992.8	
93.0000		46641.4	
92.0000		49370.9	
91.0000		52313.1	
90.0000		55930.3	
89.0000		58194.8	
88.0000		52703.0	
87.0000		45595.2	
86.0000		36410.4	
85.0000		31781.7	
84.0000		30724.5	
83.0000		29144.0	
82.0000		29034.1	
81.0000		31561.4	
80.0000		34882.9	
79.0000		44731.7	
78.0000		55810.4	
77.0000		63581.7	
76.0000		73700.6	
75.0000		76237.1	
74.0000		58172.9	
73.0000		35995.2	
72.0000		23714.5	
71.0000		19054.4	
70.0000		16739.6	
69.0000		14691.2	
68.0000		14870.3	
67.0000		15099.4	
66.0000		14030.9	
65.0000		14582.5	
64.0000		15559.0	
63.0000		15089.0	
62.0000		12652.2	
61.0000		12283.1	
60.0000		11613.3	
59.0000		12290.2	
58.0000		12812.4	
57.0000		12768.7	
56.0000		12166.3	
55.0000		11451.2	
54.0000		11355.4	
53.0000		12153.8	
52.0000		12317.1	
51.0000		12561.8	
50.0000		12858.8	
49.0000		12844.4	
48.0000		13188.2	
47.0000		14102.2	
46.0000		12490.2	
45.0000		12548.8	
44.0000		12181.7	
43.0000		12999.6	
42.0000		12366.5	
41.0000		12282.3	
40.0000		11958.2	
39.0000		12397.6	
38.0000		13019.7	
37.0000		12390.0	
36.0000		12806.2	
35.0000		13162.7	
34.0000		13001.0	
33.0000		13132.1	
32.0000		13983.5	
31.0000		14750.8	
30.0000		14528.7	
29.0000		14565.3	
28.0000		13701.6	
27.0000		14343.6	
26.0000		14207.6	
25.0000		13662.4	
24.0000		13003.2	
23.0000		12857.6	
22.0000		12718.9	
21.0000		12127.5	
20.0000		11981.9	
19.0000		12815.9	
18.0000		12999.6	
17.0000		11522.1	
16.0000		11172.1	
15.0000		9898.80	
14.0000		9544.58	
13.0000		9515.46	
12.0000		12123.7	
11.0000		19017.1	
10.0000		24300.8	
9.00000		17557.0	
8.00000		9816.87	
7.00000		9003.61	
6.00000		11298.8	
5.00000		18617.5	
4.00000		28173.3	
3.00000		31247.6	
2.00000		21387.3	
1.00000		8661.85	
0.000000		2661.24	
-1.00000		841.767	
-2.00000		353.614	
-3.00000		125.904	
-4.00000		121.084	
-5.00000		30.7229	
-6.00000		51.8072	
-7.00000		33.5341	
-8.00000		0.000000	
-9.00000		27.3092	
-10.0000		12.8514	
